{
  "resourceType": "Bundle",
  "id": "drr-out-1",
  "type": "transaction",
  "entry": [
    {
      "fullUrl": "http://localhost:8080/cqf-ruler-dstu3/fhir/Patient/drr-out-1",
      "resource": {
        "resourceType": "Patient",
        "id": "drr-out-1",
        "extension": [
          {
            "url": "http://hl7.org/fhir/us/core/StructureDefinition/us-core-race",
            "valueCodeableConcept": {
              "coding": [
                {
                  "system": "http://hl7.org/fhir/v3/Race",
                  "code": "2056-0",
                  "display": "Black"
                }
              ]
            }
          },
          {
            "url": "http://hl7.org/fhir/us/core/StructureDefinition/us-core-ethnicity",
            "valueCodeableConcept": {
              "coding": [
                {
                  "system": "http://hl7.org/fhir/v3/Ethnicity",
                  "code": "2186-5",
                  "display": "Not Hispanic or Latino"
                }
              ]
            }
          },
          {
            "url": "http://hl7.org/fhir/us/core/StructureDefinition/us-core-religion",
            "valueCodeableConcept": {
              "coding": [
                {
                  "system": "http://hl7.org/fhir/v3/ReligiousAffiliation",
                  "code": "1013",
                  "display": "Christian (non-Catholic, non-specific)\t"
                }
              ]
            }
          }
        ],
        "identifier": [
          {
            "use": "official",
            "type": {
              "coding": [
                {
                  "system": "http://hl7.org/fhir/identifier-type",
                  "code": "SB",
                  "display": "Social Beneficiary Identifier"
                }
              ],
              "text": "US Social Security Number"
            },
            "system": "http://hl7.org/fhir/sid/us-ssn",
            "value": "000002668"
          }
        ],
        "active": true,
        "name": [
          {
            "family": "Everywoman",
            "given": [
              "Eve",
              "Veronica"
            ]
          }
        ],
        "telecom": [
          {
            "system": "phone",
            "value": "901-555-5864",
            "use": "home"
          },
          {
            "system": "phone",
            "value": "901-555-9891",
            "use": "mobile"
          }
        ],
        "gender": "female",
        "birthDate": "2005-12-25",
        "address": [
          {
            "use": "home",
            "type": "postal",
            "line": [
              "666 Eden Circle"
            ],
            "city": "Boise",
            "district": "Ada County",
            "state": "ID",
            "postalCode": "83701"
          }
        ]
      },
      "request": {
        "method": "PUT",
        "url": "Patient/drr-out-1"
      }
    },
    {
      "fullUrl": "http://localhost:8080/cqf-ruler-dstu3/fhir/Encounter/drr-out-1",
      "resource": {
        "resourceType": "Encounter",
        "id": "drr-out-1",
        "status": "finished",
        "class": {
          "system": "http://hl7.org/fhir/v3/ActCode",
          "code": "IMP",
          "display": "inpatient encounter"
        },
        "type": [
          {
            "coding": [
              {
                "system": "http://www.ama-assn.org/go/cpt",
                "code": "99078",
                "display": "GROUP HEALTH EDUCATION"
              }
            ]
          }
        ],
        "subject": {
          "reference": "Patient/drr-out-1",
          "display": "Eve Veronica Everywoman"
        },
        "participant": [
          {
            "period": {
              "start": "2017-11-30T00:00:00-04:00",
              "end": "2017-11-30T14:19:00-04:00"
            },
            "individual": {
              "reference": "Practitioner/drr-out-1",
              "display": "Stanley Jason Garrett MD"
            }
          }
        ],
        "period": {
          "start": "2017-11-30T00:00:00-04:00",
          "end": "2017-11-30T14:19:00-04:00"
        },
        "hospitalization": {
          "dischargeDisposition": {
            "coding": [
              {
                "system": "http://hl7.org/fhir/discharge-disposition",
                "code": "home",
                "display": "Home"
              }
            ]
          }
        },
        "location": [
          {
            "location": {
              "reference": "Location/Location-1001",
              "display": "Windward General Hospital"
            }
          }
        ],
        "serviceProvider": {
          "reference": "Organization/Organization-1001",
          "display": "Windward General Hospital"
        }
      },
      "request": {
        "method": "PUT",
        "url": "Encounter/drr-out-1"
      }
    },
    {
      "fullUrl": "http://localhost:8080/cqf-ruler-dstu3/fhir/Observation/drr-out-1-assessment1",
      "resource": {
        "resourceType": "Observation",
        "id": "drr-out-1-assessment1",
        "status": "final",
        "code": {
          "coding": [
            {
              "system": "http://loinc.org",
              "code": "44249-1"
            }
          ]
        },
        "subject": {
          "reference": "Patient/drr-out-1"
        },
        "effectiveDateTime": "2017-11-20T00:00:00-04:00",
        "performer": [
          {
            "reference": "Practitioner/drr-out-1"
          }
        ],
        "valueQuantity": {
          "value": 10.0
        }
      },
      "request": {
        "method": "PUT",
        "url": "Observation/drr-out-1-assessment1"
      }
    },
    {
      "fullUrl": "http://localhost:8080/cqf-ruler-dstu3/fhir/Observation/drr-out-1-assessment2",
      "resource": {
        "resourceType": "Observation",
        "id": "drr-out-1-assessment2",
        "status": "final",
        "code": {
          "coding": [
            {
              "system": "http://loinc.org",
              "code": "44249-1"
            }
          ]
        },
        "subject": {
          "reference": "Patient/drr-out-1"
        },
        "effectiveDateTime": "2018-03-20T00:00:00-04:00",
        "performer": [
          {
            "reference": "Practitioner/drr-out-1"
          }
        ],
        "valueQuantity": {
          "value": 6.0
        }
      },
      "request": {
        "method": "PUT",
        "url": "Observation/drr-out-1-assessment2"
      }
    },
    {
      "fullUrl": "http://localhost:8080/cqf-ruler-dstu3/fhir/Practitioner/drr-out-1",
      "resource": {
        "resourceType": "Practitioner",
        "id": "drr-out-1",
        "meta": {
          "versionId": "1",
          "lastUpdated": "2019-12-06T14:24:16.298-07:00"
        },
        "identifier": [
          {
            "use": "official",
            "type": {
              "coding": [
                {
                  "system": "http://hl7.org/fhir/identifier-type",
                  "code": "SB",
                  "display": "Social Beneficiary Identifier"
                }
              ],
              "text": "US Social Security Number"
            },
            "system": "http://hl7.org/fhir/sid/us-ssn",
            "value": "000002519"
          },
          {
            "use": "official",
            "type": {
              "coding": [
                {
                  "system": "http://hl7.org/fhir/v2/0203",
                  "code": "PRN",
                  "display": "Provider number"
                }
              ],
              "text": "US National Provider Identifier"
            },
            "system": "http://hl7.org/fhir/sid/us-npi",
            "value": "999992519"
          }
        ],
        "active": true,
        "name": [
          {
            "family": "Garrett",
            "given": [
              "Stanley",
              "Jason"
            ],
            "suffix": [
              "MD"
            ]
          }
        ],
        "telecom": [
          {
            "system": "phone",
            "value": "616-555-2401",
            "use": "work"
          },
          {
            "system": "phone",
            "value": "616-555-7849",
            "use": "mobile"
          }
        ],
        "address": [
          {
            "use": "work",
            "type": "postal",
            "line": [
              "352 NW Cedar Drive",
              "#29"
            ],
            "city": "Northport",
            "district": "Leelanau County",
            "state": "MI",
            "postalCode": "49670"
          }
        ],
        "gender": "male",
        "birthDate": "1965-09-14",
        "qualification": [
          {
            "code": {
              "coding": [
                {
                  "system": "http://hl7.org/fhir/v2/0360/2.7",
                  "code": "MD"
                }
              ],
              "text": "Qualification, Doctor of Medicine"
            }
          }
        ]
      },
      "request": {
        "method": "PUT",
        "url": "Practitioner/drr-out-1"
      }
    },
    {
      "fullUrl": "http://localhost:8080/cqf-ruler-dstu3/fhir/DiagnosisReport/drr-out-1",
      "resource": {
        "resourceType": "DiagnosticReport",
        "id": "drr-out-1",
        "extension": [
          {
            "url": "http://hl7.org/fhir/StructureDefinition/diagnosticReport-locationPerformed",
            "valueReference": {
              "reference": "Location/Location-1001"
            }
          }
        ],
        "identifier": [
          {
            "system": "http://acme.com/lab/reports",
            "value": "5234342"
          }
        ],
        "status": "final",
        "category": {
          "coding": [
            {
              "system": "http://hl7.org/fhir/v2/0074",
              "code": "HM"
            }
          ]
        },
        "code": {
          "coding": [
            {
              "system": "http://hl7.org/fhir/sid/icd-10-cm",
              "code": "F32.0",
              "display": "[F32.0] Major depressive disorder, single episode, mild"
            }
          ],
          "text": "[F32.0] Major depressive disorder, single episode, mild"
        },
        "subject": {
          "reference": "Patient/drr-out-1"
        },
        "effectivePeriod": {
          "start": "2017-11-30T00:00:00-04:00",
          "end": "2017-11-30T23:59:00-04:00"
        },
        "issued": "2017-11-30T00:00:00-04:00"
      },
      "request": {
        "method": "PUT",
        "url": "DiagnosticReport/drr-out-1"
      }
    },
    {
      "fullUrl": "http://localhost:8080/cqf-ruler-dstu3/fhir/MeasureReport/drr-out-1",
      "resource": {
        "resourceType": "MeasureReport",
        "contained": [
          {
            "resourceType": "Bundle",
            "id": "87362c39-7a03-484b-993c-a1eccf60206f",
            "type": "collection",
            "entry": [
              {
                "fullUrl": "Observation/drr-out-1-assessment1",
                "resource": {
                  "resourceType": "Observation",
                  "id": "drr-out-1-assessment1",
                  "meta": {
                    "versionId": "4",
                    "lastUpdated": "2019-12-11T15:10:04.227-07:00"
                  },
                  "status": "final",
                  "code": {
                    "coding": [
                      {
                        "system": "http://loinc.org",
                        "code": "44249-1"
                      }
                    ]
                  },
                  "subject": {
                    "reference": "Patient/drr-out-1"
                  },
                  "effectiveDateTime": "2017-11-20T00:00:00-04:00",
                  "performer": [
                    {
                      "reference": "Practitioner/drr-out-1"
                    }
                  ],
                  "valueQuantity": {
                    "value": 10.0
                  }
                }
              },
              {
                "fullUrl": "DiagnosticReport/drr-out-1",
                "resource": {
                  "resourceType": "DiagnosticReport",
                  "id": "drr-out-1",
                  "meta": {
                    "versionId": "2",
                    "lastUpdated": "2019-12-11T15:16:08.803-07:00"
                  },
                  "text": {
                    "status": "generated",
                    "div": "<div xmlns=\"http://www.w3.org/1999/xhtml\"><div class=\"hapiHeaderText\"> [F32.0] Major depressive disorder, single episode, mild </div><table class=\"hapiPropertyTable\"><tbody><tr><td>Status</td><td>FINAL</td></tr><tr><td>Issued</td><td>29 November 2017 21:00:00</td></tr></tbody></table></div>"
                  },
                  "extension": [
                    {
                      "url": "http://hl7.org/fhir/StructureDefinition/diagnosticReport-locationPerformed",
                      "valueReference": {
                        "reference": "Location/Location-1001"
                      }
                    }
                  ],
                  "identifier": [
                    {
                      "system": "http://acme.com/lab/reports",
                      "value": "5234342"
                    }
                  ],
                  "status": "final",
                  "category": {
                    "coding": [
                      {
                        "system": "http://hl7.org/fhir/v2/0074",
                        "code": "HM"
                      }
                    ]
                  },
                  "code": {
                    "coding": [
                      {
                        "system": "http://hl7.org/fhir/sid/icd-10-cm",
                        "code": "F32.0",
                        "display": "[F32.0] Major depressive disorder, single episode, mild"
                      }
                    ],
                    "text": "[F32.0] Major depressive disorder, single episode, mild"
                  },
                  "subject": {
                    "reference": "Patient/drr-out-1"
                  },
                  "effectivePeriod": {
                    "start": "2017-11-30T00:00:00-04:00",
                    "end": "2017-11-30T23:59:00-04:00"
                  },
                  "issued": "2017-11-30T00:00:00-04:00"
                }
              },
              {
                "fullUrl": "Patient/drr-out-1",
                "resource": {
                  "resourceType": "Patient",
                  "id": "drr-out-1",
                  "meta": {
                    "versionId": "1",
                    "lastUpdated": "2019-12-11T15:00:00.520-07:00"
                  },
                  "text": {
                    "status": "generated",
                    "div": "<div xmlns=\"http://www.w3.org/1999/xhtml\"><div class=\"hapiHeaderText\">Eve Veronica <b>EVERYWOMAN </b></div><table class=\"hapiPropertyTable\"><tbody><tr><td>Identifier</td><td>000002668</td></tr><tr><td>Address</td><td><span>666 Eden Circle </span><br/><span>Boise </span><span>ID </span></td></tr><tr><td>Date of birth</td><td><span>25 December 2005</span></td></tr></tbody></table></div>"
                  },
                  "extension": [
                    {
                      "url": "http://hl7.org/fhir/us/core/StructureDefinition/us-core-race",
                      "valueCodeableConcept": {
                        "coding": [
                          {
                            "system": "http://hl7.org/fhir/v3/Race",
                            "code": "2056-0",
                            "display": "Black"
                          }
                        ]
                      }
                    },
                    {
                      "url": "http://hl7.org/fhir/us/core/StructureDefinition/us-core-ethnicity",
                      "valueCodeableConcept": {
                        "coding": [
                          {
                            "system": "http://hl7.org/fhir/v3/Ethnicity",
                            "code": "2186-5",
                            "display": "Not Hispanic or Latino"
                          }
                        ]
                      }
                    },
                    {
                      "url": "http://hl7.org/fhir/us/core/StructureDefinition/us-core-religion",
                      "valueCodeableConcept": {
                        "coding": [
                          {
                            "system": "http://hl7.org/fhir/v3/ReligiousAffiliation",
                            "code": "1013",
                            "display": "Christian (non-Catholic, non-specific)\t"
                          }
                        ]
                      }
                    }
                  ],
                  "identifier": [
                    {
                      "use": "official",
                      "type": {
                        "coding": [
                          {
                            "system": "http://hl7.org/fhir/identifier-type",
                            "code": "SB",
                            "display": "Social Beneficiary Identifier"
                          }
                        ],
                        "text": "US Social Security Number"
                      },
                      "system": "http://hl7.org/fhir/sid/us-ssn",
                      "value": "000002668"
                    }
                  ],
                  "active": true,
                  "name": [
                    {
                      "family": "Everywoman",
                      "given": [
                        "Eve",
                        "Veronica"
                      ]
                    }
                  ],
                  "telecom": [
                    {
                      "system": "phone",
                      "value": "901-555-5864",
                      "use": "home"
                    },
                    {
                      "system": "phone",
                      "value": "901-555-9891",
                      "use": "mobile"
                    }
                  ],
                  "gender": "female",
                  "birthDate": "2005-12-25",
                  "address": [
                    {
                      "use": "home",
                      "type": "postal",
                      "line": [
                        "666 Eden Circle"
                      ],
                      "city": "Boise",
                      "district": "Ada County",
                      "state": "ID",
                      "postalCode": "83701"
                    }
                  ]
                }
              },
              {
                "fullUrl": "Observation/drr-out-1-assessment2",
                "resource": {
                  "resourceType": "Observation",
                  "id": "drr-out-1-assessment2",
                  "meta": {
                    "versionId": "1",
                    "lastUpdated": "2019-12-11T15:00:00.520-07:00"
                  },
                  "status": "final",
                  "code": {
                    "coding": [
                      {
                        "system": "http://loinc.org",
                        "code": "44249-1"
                      }
                    ]
                  },
                  "subject": {
                    "reference": "Patient/drr-out-1"
                  },
                  "effectiveDateTime": "2018-03-20T00:00:00-04:00",
                  "performer": [
                    {
                      "reference": "Practitioner/drr-out-1"
                    }
                  ],
                  "valueQuantity": {
                    "value": 6.0
                  }
                }
              },
              {
                "fullUrl": "69a2da39-8e03-46cd-b508-3ab12e9fa1f5",
                "resource": {
                  "resourceType": "List",
                  "id": "69a2da39-8e03-46cd-b508-3ab12e9fa1f5",
                  "title": "initial-population",
                  "entry": [
                    {
                      "item": {
                        "reference": "#DiagnosticReport/drr-out-1"
                      }
                    },
                    {
                      "item": {
                        "reference": "#Patient/drr-out-1"
                      }
                    },
                    {
                      "item": {
                        "reference": "#Encounter/drr-out-1"
                      }
                    }
                  ]
                }
              },
              {
                "fullUrl": "d6394216-cacf-4373-adeb-fc05f3629829",
                "resource": {
                  "resourceType": "List",
                  "id": "d6394216-cacf-4373-adeb-fc05f3629829",
                  "title": "denominator",
                  "entry": [
                    {
                      "item": {
                        "reference": "#Observation/drr-out-1-assessment1"
                      }
                    },
                    {
                      "item": {
                        "reference": "#Observation/drr-out-1-assessment2"
                      }
                    }
                  ]
                }
              },
              {
                "fullUrl": "Encounter/drr-out-1",
                "resource": {
                  "resourceType": "Encounter",
                  "id": "drr-out-1",
                  "meta": {
                    "versionId": "2",
                    "lastUpdated": "2019-12-11T15:13:52.287-07:00"
                  },
                  "status": "finished",
                  "class": {
                    "system": "http://hl7.org/fhir/v3/ActCode",
                    "code": "IMP",
                    "display": "inpatient encounter"
                  },
                  "type": [
                    {
                      "coding": [
                        {
                          "system": "http://www.ama-assn.org/go/cpt",
                          "code": "99078",
                          "display": "GROUP HEALTH EDUCATION"
                        }
                      ]
                    }
                  ],
                  "subject": {
                    "reference": "Patient/drr-out-1",
                    "display": "Eve Veronica Everywoman"
                  },
                  "participant": [
                    {
                      "period": {
                        "start": "2017-11-30T00:00:00-04:00",
                        "end": "2017-11-30T14:19:00-04:00"
                      },
                      "individual": {
                        "reference": "Practitioner/drr-out-1",
                        "display": "Stanley Jason Garrett MD"
                      }
                    }
                  ],
                  "period": {
                    "start": "2017-11-30T00:00:00-04:00",
                    "end": "2017-11-30T14:19:00-04:00"
                  },
                  "hospitalization": {
                    "dischargeDisposition": {
                      "coding": [
                        {
                          "system": "http://hl7.org/fhir/discharge-disposition",
                          "code": "home",
                          "display": "Home"
                        }
                      ]
                    }
                  },
                  "location": [
                    {
                      "location": {
                        "reference": "Location/Location-1001",
                        "display": "Windward General Hospital"
                      }
                    }
                  ],
                  "serviceProvider": {
                    "reference": "Organization/Organization-1001",
                    "display": "Windward General Hospital"
                  }
                }
              }
            ]
          }
        ],
        "status": "complete",
        "type": "individual",
        "measure": {
          "reference": "Measure/measure-drr"
        },
        "patient": {
          "reference": "Patient/drr-out-1"
        },
        "period": {
          "start": "2018-01-01T00:00:00-07:00",
          "end": "2018-12-31T00:00:00-07:00"
        },
        "group": [
          {
            "identifier": {
              "value": "DRR-cohort-1"
            },
            "population": [
              {
                "identifier": {
                  "value": "initial-population"
                },
                "code": {
                  "coding": [
                    {
                      "code": "initial-population"
                    }
                  ]
                },
                "count": 1
              },
              {
                "identifier": {
                  "value": "numerator 1"
                },
                "code": {
                  "coding": [
                    {
                      "code": "numerator"
                    }
                  ]
                },
                "count": 0
              },
              {
                "identifier": {
                  "value": "denominator 1"
                },
                "code": {
                  "coding": [
                    {
                      "code": "denominator"
                    }
                  ]
                },
                "count": 1
              }
            ],
            "measureScore": 0.0
          },
          {
            "identifier": {
              "value": "DRR-cohort-2"
            },
            "population": [
              {
                "identifier": {
                  "value": "initial-population"
                },
                "code": {
                  "coding": [
                    {
                      "code": "initial-population"
                    }
                  ]
                },
                "count": 1
              },
              {
                "identifier": {
                  "value": "numerator 2"
                },
                "code": {
                  "coding": [
                    {
                      "code": "numerator"
                    }
                  ]
                },
                "count": 0
              },
              {
                "identifier": {
                  "value": "denominator 2"
                },
                "code": {
                  "coding": [
                    {
                      "code": "denominator"
                    }
                  ]
                },
                "count": 1
              }
            ],
            "measureScore": 0.0
          },
          {
            "identifier": {
              "value": "DRR-cohort-3"
            },
            "population": [
              {
                "identifier": {
                  "value": "initial-population"
                },
                "code": {
                  "coding": [
                    {
                      "code": "initial-population"
                    }
                  ]
                },
                "count": 1
              },
              {
                "identifier": {
                  "value": "numerator 3"
                },
                "code": {
                  "coding": [
                    {
                      "code": "numerator"
                    }
                  ]
                },
                "count": 0
              },
              {
                "identifier": {
                  "value": "denominator 3"
                },
                "code": {
                  "coding": [
                    {
                      "code": "denominator"
                    }
                  ]
                },
                "count": 1
              }
            ],
            "measureScore": 0.0
          }
        ],
        "evaluatedResources": {
          "reference": "#87362c39-7a03-484b-993c-a1eccf60206f"
        }
      },
      "request": {
        "method": "PUT",
        "url": "MeasureReport/drr-out-1"
      }
    }
  ]
}
