{
  "resourceType": "Bundle",
  "id": "dsf-in-1",
  "type": "transaction",
  "entry": [
    {
      "fullUrl": "http://localhost:8080/cqf-ruler/baseDstu3/Observation/dsf-in-1",
      "resource": {
        "resourceType": "Observation",
        "id": "dsf-in-1",
        "status": "final",
        "code": {
          "coding": [
            {
              "system": "http://loinc.org",
              "code": "44261-6"
            }
          ]
        },
        "subject": {
          "reference": "Patient/dsf-in-1"
        },
        "effectiveDateTime": "2018-07-01T12:00:00-07:00",
        "performer": [
          {
            "reference": "Practitioner/dsf-in-1"
          }
        ],
        "valueQuantity": {
          "value": 5.0
        }
      },
      "request": {
        "method": "PUT",
        "url": "Observation/dsf-in-1"
      }
    },
    {
      "fullUrl": "http://localhost:8080/cqf-ruler/baseDstu3/Patient/dsf-in-1",
      "resource": {
        "resourceType": "Patient",
        "id": "dsf-in-1",
        "extension": [
          {
            "url": "http://hl7.org/fhir/us/core/StructureDefinition/us-core-race",
            "valueCodeableConcept": {
              "coding": [
                {
                  "system": "http://hl7.org/fhir/v3/Race",
                  "code": "2110-5",
                  "display": "English"
                }
              ]
            }
          },
          {
            "url": "http://hl7.org/fhir/us/core/StructureDefinition/us-core-ethnicity",
            "valueCodeableConcept": {
              "coding": [
                {
                  "system": "http://hl7.org/fhir/v3/Ethnicity",
                  "code": "2186-5",
                  "display": "Not Hispanic or Latino"
                }
              ]
            }
          },
          {
            "url": "http://hl7.org/fhir/us/core/StructureDefinition/us-core-religion",
            "valueCodeableConcept": {
              "coding": [
                {
                  "system": "http://hl7.org/fhir/v3/ReligiousAffiliation",
                  "code": "1013",
                  "display": "Christian (non-Catholic, non-specific)"
                }
              ]
            }
          }
        ],
        "identifier": [
          {
            "use": "official",
            "type": {
              "coding": [
                {
                  "system": "http://hl7.org/fhir/identifier-type",
                  "code": "SB",
                  "display": "Social Beneficiary Identifier"
                }
              ],
              "text": "US Social Security Number"
            },
            "system": "http://hl7.org/fhir/sid/us-ssn",
            "value": "000002669"
          }
        ],
        "active": true,
        "name": [
          {
            "family": "Betterman",
            "given": [
              "Ed"
            ]
          }
        ],
        "telecom": [
          {
            "system": "phone",
            "value": "901-555-5864",
            "use": "home"
          },
          {
            "system": "phone",
            "value": "901-555-9891",
            "use": "mobile"
          }
        ],
        "gender": "male",
        "birthDate": "2005-05-21",
        "address": [
          {
            "use": "home",
            "type": "postal",
            "line": [
              "123 Rock Circle"
            ],
            "city": "Seattle",
            "district": "King County",
            "state": "WA",
            "postalCode": "98114"
          }
        ]
      },
      "request": {
        "method": "PUT",
        "url": "Patient/dsf-in-1"
      }
    },
    {
      "fullUrl": "http://localhost:8080/cqf-ruler/baseDstu3/Practitioner/dsf-in-1",
      "resource": {
        "resourceType": "Practitioner",
        "id": "dsf-in-1",
        "meta": {
          "versionId": "1",
          "lastUpdated": "2019-12-06T14:24:16.298-07:00"
        },
        "identifier": [
          {
            "use": "official",
            "type": {
              "coding": [
                {
                  "system": "http://hl7.org/fhir/identifier-type",
                  "code": "SB",
                  "display": "Social Beneficiary Identifier"
                }
              ],
              "text": "US Social Security Number"
            },
            "system": "http://hl7.org/fhir/sid/us-ssn",
            "value": "000002519"
          },
          {
            "use": "official",
            "type": {
              "coding": [
                {
                  "system": "http://hl7.org/fhir/v2/0203",
                  "code": "PRN",
                  "display": "Provider number"
                }
              ],
              "text": "US National Provider Identifier"
            },
            "system": "http://hl7.org/fhir/sid/us-npi",
            "value": "999992519"
          }
        ],
        "active": true,
        "name": [
          {
            "family": "Garrett",
            "given": [
              "Stanley",
              "Jason"
            ],
            "suffix": [
              "MD"
            ]
          }
        ],
        "telecom": [
          {
            "system": "phone",
            "value": "616-555-2401",
            "use": "work"
          },
          {
            "system": "phone",
            "value": "616-555-7849",
            "use": "mobile"
          }
        ],
        "address": [
          {
            "use": "work",
            "type": "postal",
            "line": [
              "352 NW Cedar Drive",
              "#29"
            ],
            "city": "Northport",
            "district": "Leelanau County",
            "state": "MI",
            "postalCode": "49670"
          }
        ],
        "gender": "male",
        "birthDate": "1965-09-14",
        "qualification": [
          {
            "code": {
              "coding": [
                {
                  "system": "http://hl7.org/fhir/v2/0360/2.7",
                  "code": "MD"
                }
              ],
              "text": "Qualification, Doctor of Medicine"
            }
          }
        ]
      },
      "request": {
        "method": "PUT",
        "url": "Practitioner/dsf-in-1"
      }
    },
    {
      "fullUrl": "http://localhost:8080/cqf-ruler/baseDstu3/MeasureReport/measurereport-dsf-in-1",
      "resource": {
        "resourceType": "MeasureReport",
        "id": "measurereport-dsf-in-1",
        "contained": [
          {
            "resourceType": "Bundle",
            "id": "1196c4d8-03ce-4e45-8cd6-ead23ba49b58",
            "type": "collection",
            "entry": [
              {
                "fullUrl": "219fdd91-02b3-4072-a3d6-f500b27f5815",
                "resource": {
                  "resourceType": "List",
                  "id": "219fdd91-02b3-4072-a3d6-f500b27f5815",
                  "title": "initial-population",
                  "entry": [
                    {
                      "item": {
                        "reference": "#Patient/dsf-in-1/_history/1"
                      }
                    }
                  ]
                }
              },
              {
                "fullUrl": "Patient/dsf-in-1/_history/1",
                "resource": {
                  "resourceType": "Patient",
                  "id": "dsf-in-1",
                  "meta": {
                    "versionId": "1",
                    "lastUpdated": "2019-12-19T18:43:20.761-07:00"
                  },
                  "text": {
                    "status": "generated",
                    "div": "<div xmlns=\"http://www.w3.org/1999/xhtml\"><div class=\"hapiHeaderText\">Ed <b>BETTERMAN </b></div><table class=\"hapiPropertyTable\"><tbody><tr><td>Identifier</td><td>000002669</td></tr><tr><td>Address</td><td><span>123 Rock Circle </span><br/><span>Seattle </span><span>WA </span></td></tr><tr><td>Date of birth</td><td><span>21 May 2005</span></td></tr></tbody></table></div>"
                  },
                  "extension": [
                    {
                      "url": "http://hl7.org/fhir/us/core/StructureDefinition/us-core-race",
                      "valueCodeableConcept": {
                        "coding": [
                          {
                            "system": "http://hl7.org/fhir/v3/Race",
                            "code": "2110-5",
                            "display": "English"
                          }
                        ]
                      }
                    },
                    {
                      "url": "http://hl7.org/fhir/us/core/StructureDefinition/us-core-ethnicity",
                      "valueCodeableConcept": {
                        "coding": [
                          {
                            "system": "http://hl7.org/fhir/v3/Ethnicity",
                            "code": "2186-5",
                            "display": "Not Hispanic or Latino"
                          }
                        ]
                      }
                    },
                    {
                      "url": "http://hl7.org/fhir/us/core/StructureDefinition/us-core-religion",
                      "valueCodeableConcept": {
                        "coding": [
                          {
                            "system": "http://hl7.org/fhir/v3/ReligiousAffiliation",
                            "code": "1013",
                            "display": "Christian (non-Catholic, non-specific)"
                          }
                        ]
                      }
                    }
                  ],
                  "identifier": [
                    {
                      "use": "official",
                      "type": {
                        "coding": [
                          {
                            "system": "http://hl7.org/fhir/identifier-type",
                            "code": "SB",
                            "display": "Social Beneficiary Identifier"
                          }
                        ],
                        "text": "US Social Security Number"
                      },
                      "system": "http://hl7.org/fhir/sid/us-ssn",
                      "value": "000002669"
                    }
                  ],
                  "active": true,
                  "name": [
                    {
                      "family": "Betterman",
                      "given": [
                        "Ed"
                      ]
                    }
                  ],
                  "telecom": [
                    {
                      "system": "phone",
                      "value": "901-555-5864",
                      "use": "home"
                    },
                    {
                      "system": "phone",
                      "value": "901-555-9891",
                      "use": "mobile"
                    }
                  ],
                  "gender": "male",
                  "birthDate": "2005-05-21",
                  "address": [
                    {
                      "use": "home",
                      "type": "postal",
                      "line": [
                        "123 Rock Circle"
                      ],
                      "city": "Seattle",
                      "district": "King County",
                      "state": "WA",
                      "postalCode": "98114"
                    }
                  ]
                }
              },
              {
                "fullUrl": "50526aad-00dd-4c26-b32e-ab6a79d7f04f",
                "resource": {
                  "resourceType": "List",
                  "id": "50526aad-00dd-4c26-b32e-ab6a79d7f04f",
                  "title": "numerator",
                  "entry": [
                    {
                      "item": {
                        "reference": "#Observation/dsf-in-1/_history/2"
                      }
                    }
                  ]
                }
              },
              {
                "fullUrl": "Observation/dsf-in-1/_history/2",
                "resource": {
                  "resourceType": "Observation",
                  "id": "dsf-in-1",
                  "meta": {
                    "versionId": "2",
                    "lastUpdated": "2019-12-19T19:34:24.701-07:00"
                  },
                  "status": "final",
                  "code": {
                    "coding": [
                      {
                        "system": "http://loinc.org",
                        "code": "44261-6"
                      }
                    ]
                  },
                  "subject": {
                    "reference": "Patient/dsf-in-1"
                  },
                  "effectiveDateTime": "2018-07-01T12:00:00-07:00",
                  "performer": [
                    {
                      "reference": "Practitioner/dsf-in-1"
                    }
                  ],
                  "valueQuantity": {
                    "value": 5.0
                  }
                }
              }
            ]
          }
        ],
        "status": "complete",
        "type": "individual",
        "measure": {
          "reference": "Measure/measure-dsf"
        },
        "patient": {
          "reference": "Patient/dsf-in-1"
        },
        "period": {
          "start": "2018-01-01T00:00:00-07:00",
          "end": "2018-12-31T00:00:00-07:00"
        },
        "group": [
          {
            "identifier": {
              "value": "DSF-cohort-1"
            },
            "population": [
              {
                "identifier": {
                  "value": "initial-population"
                },
                "code": {
                  "coding": [
                    {
                      "code": "initial-population"
                    }
                  ]
                },
                "count": 1
              },
              {
                "identifier": {
                  "value": "numerator 1"
                },
                "code": {
                  "coding": [
                    {
                      "code": "numerator"
                    }
                  ]
                },
                "count": 1
              },
              {
                "identifier": {
                  "value": "denominator 1"
                },
                "code": {
                  "coding": [
                    {
                      "code": "denominator"
                    }
                  ]
                },
                "count": 1
              }
            ],
            "measureScore": 1.0
          },
          {
            "identifier": {
              "value": "DSF-cohort-2"
            },
            "population": [
              {
                "identifier": {
                  "value": "initial-population"
                },
                "code": {
                  "coding": [
                    {
                      "code": "initial-population"
                    }
                  ]
                },
                "count": 1
              },
              {
                "identifier": {
                  "value": "numerator 2"
                },
                "code": {
                  "coding": [
                    {
                      "code": "numerator"
                    }
                  ]
                },
                "count": 0
              },
              {
                "identifier": {
                  "value": "denominator 2"
                },
                "code": {
                  "coding": [
                    {
                      "code": "denominator"
                    }
                  ]
                },
                "count": 0
              }
            ]
          }
        ],
        "evaluatedResources": {
          "reference": "#1196c4d8-03ce-4e45-8cd6-ead23ba49b58"
        }
      },
      "request": {
        "method": "PUT",
        "url": "MeasureReport/measurereport-dsf-in-1"
      }
    }
  ]
}
